<ExplanationOfBenefit xmlns="http://hl7.org/fhir">
  <id value="1688b9e1fb874e04a98850c117e7b375" />
  <meta>
    <versionId value="1" />
    <lastUpdated value="2023-05-18T14:54:15.4698845-07:00" />
  </meta>
  <contained>
    <ServiceRequest>
      <id value="referral" />
      <status value="completed" />
      <intent value="order" />
      <subject>
        <reference value="urn:uuid:5a45527f-a341-433b-bc62-106725a2956c" />
      </subject>
      <requester>
        <reference value="urn:uuid:0000016d-3a85-4cca-0000-000000016c60" />
      </requester>
      <performer>
        <reference value="urn:uuid:0000016d-3a85-4cca-0000-000000016c60" />
      </performer>
    </ServiceRequest>
  </contained>
  <contained>
    <Coverage>
      <id value="coverage" />
      <status value="active" />
      <type>
        <text value="Cigna Health" />
      </type>
      <beneficiary>
        <reference value="urn:uuid:5a45527f-a341-433b-bc62-106725a2956c" />
      </beneficiary>
      <payor>
        <display value="Cigna Health" />
      </payor>
    </Coverage>
  </contained>
  <identifier>
    <system value="https://bluebutton.cms.gov/resources/variables/clm_id" />
    <value value="dde58224-8806-47a1-89c5-47c6742a0f14" />
  </identifier>
  <identifier>
    <system value="https://bluebutton.cms.gov/resources/identifier/claim-group" />
    <value value="99999999999" />
  </identifier>
  <status value="active" />
  <type>
    <coding>
      <system value="http://terminology.hl7.org/CodeSystem/claim-type" />
      <code value="institutional" />
    </coding>
  </type>
  <use value="claim" />
  <patient>
    <reference value="urn:uuid:5a45527f-a341-433b-bc62-106725a2956c" />
  </patient>
  <billablePeriod>
    <start value="2018-06-19T04:02:35-04:00" />
    <end value="2019-06-19T04:02:35-04:00" />
  </billablePeriod>
  <created value="2018-06-19T04:02:35-04:00" />
  <insurer>
    <display value="Cigna Health" />
  </insurer>
  <provider>
    <reference value="urn:uuid:0000016d-3a85-4cca-0000-000000016c60" />
  </provider>
  <referral>
    <reference value="#referral" />
  </referral>
  <claim>
    <reference value="urn:uuid:dde58224-8806-47a1-89c5-47c6742a0f14" />
  </claim>
  <outcome value="complete" />
  <careTeam>
    <sequence value="1" />
    <provider>
      <reference value="urn:uuid:0000016d-3a85-4cca-0000-000000016c60" />
    </provider>
    <role>
      <coding>
        <system value="http://terminology.hl7.org/CodeSystem/claimcareteamrole" />
        <code value="primary" />
        <display value="Primary Care Practitioner" />
      </coding>
    </role>
  </careTeam>
  <insurance>
    <focal value="true" />
    <coverage>
      <reference value="#coverage" />
      <display value="Cigna Health" />
    </coverage>
  </insurance>
  <item>
    <sequence value="1" />
    <category>
      <coding>
        <system value="https://bluebutton.cms.gov/resources/variables/line_cms_type_srvc_cd" />
        <code value="1" />
        <display value="Medical care" />
      </coding>
    </category>
    <productOrService>
      <coding>
        <system value="http://snomed.info/sct" />
        <code value="702927004" />
        <display value="Urgent care clinic (procedure)" />
      </coding>
      <text value="Urgent care clinic (procedure)" />
    </productOrService>
    <servicedPeriod>
      <start value="2018-06-19T03:47:35-04:00" />
      <end value="2018-06-19T04:02:35-04:00" />
    </servicedPeriod>
    <locationCodeableConcept>
      <coding>
        <system value="http://terminology.hl7.org/CodeSystem/ex-serviceplace" />
        <code value="20" />
        <display value="Urgent Care Facility" />
      </coding>
    </locationCodeableConcept>
    <encounter>
      <reference value="urn:uuid:4f0f8779-40d5-46be-945e-aaeadeffc601" />
    </encounter>
  </item>
  <item>
    <sequence value="2" />
    <informationSequence value="1" />
    <category>
      <coding>
        <system value="https://bluebutton.cms.gov/resources/variables/line_cms_type_srvc_cd" />
        <code value="1" />
        <display value="Medical care" />
      </coding>
    </category>
    <productOrService>
      <coding>
        <system value="http://hl7.org/fhir/sid/cvx" />
        <code value="140" />
        <display value="Influenza, seasonal, injectable, preservative free" />
      </coding>
      <text value="Influenza, seasonal, injectable, preservative free" />
    </productOrService>
    <servicedPeriod>
      <start value="2018-06-19T03:47:35-04:00" />
      <end value="2018-06-19T04:02:35-04:00" />
    </servicedPeriod>
    <locationCodeableConcept>
      <coding>
        <system value="http://terminology.hl7.org/CodeSystem/ex-serviceplace" />
        <code value="20" />
        <display value="Urgent Care Facility" />
      </coding>
    </locationCodeableConcept>
    <net>
      <value value="140.52" />
      <currency value="USD" />
    </net>
    <adjudication>
      <category>
        <coding>
          <system value="https://bluebutton.cms.gov/resources/codesystem/adjudication" />
          <code value="https://bluebutton.cms.gov/resources/variables/line_coinsrnc_amt" />
          <display value="Line Beneficiary Coinsurance Amount" />
        </coding>
      </category>
      <amount>
        <value value="28.104000000000003" />
        <currency value="USD" />
      </amount>
    </adjudication>
    <adjudication>
      <category>
        <coding>
          <system value="https://bluebutton.cms.gov/resources/codesystem/adjudication" />
          <code value="https://bluebutton.cms.gov/resources/variables/line_prvdr_pmt_amt" />
          <display value="Line Provider Payment Amount" />
        </coding>
      </category>
      <amount>
        <value value="112.41600000000001" />
        <currency value="USD" />
      </amount>
    </adjudication>
    <adjudication>
      <category>
        <coding>
          <system value="https://bluebutton.cms.gov/resources/codesystem/adjudication" />
          <code value="https://bluebutton.cms.gov/resources/variables/line_sbmtd_chrg_amt" />
          <display value="Line Submitted Charge Amount" />
        </coding>
      </category>
      <amount>
        <value value="140.52" />
        <currency value="USD" />
      </amount>
    </adjudication>
    <adjudication>
      <category>
        <coding>
          <system value="https://bluebutton.cms.gov/resources/codesystem/adjudication" />
          <code value="https://bluebutton.cms.gov/resources/variables/line_alowd_chrg_amt" />
          <display value="Line Allowed Charge Amount" />
        </coding>
      </category>
      <amount>
        <value value="140.52" />
        <currency value="USD" />
      </amount>
    </adjudication>
    <adjudication>
      <category>
        <coding>
          <system value="https://bluebutton.cms.gov/resources/codesystem/adjudication" />
          <code value="https://bluebutton.cms.gov/resources/variables/line_bene_ptb_ddctbl_amt" />
          <display value="Line Beneficiary Part B Deductible Amount" />
        </coding>
      </category>
      <amount>
        <value value="0" />
        <currency value="USD" />
      </amount>
    </adjudication>
    <adjudication>
      <category>
        <coding>
          <system value="https://bluebutton.cms.gov/resources/codesystem/adjudication" />
          <code value="https://bluebutton.cms.gov/resources/variables/line_prcsg_ind_cd" />
          <display value="Line Processing Indicator Code" />
        </coding>
      </category>
    </adjudication>
  </item>
  <total>
    <category>
      <coding>
        <system value="http://terminology.hl7.org/CodeSystem/adjudication" />
        <code value="submitted" />
        <display value="Submitted Amount" />
      </coding>
      <text value="Submitted Amount" />
    </category>
    <amount>
      <value value="129.16" />
      <currency value="USD" />
    </amount>
  </total>
  <payment>
    <amount>
      <value value="112.41600000000001" />
      <currency value="USD" />
    </amount>
  </payment>
</ExplanationOfBenefit>