<ExplanationOfBenefit xmlns="http://hl7.org/fhir">
  <id value="3a379b5b2f5648358d06dabbd6dbb951" />
  <meta>
    <versionId value="1" />
    <lastUpdated value="2023-05-18T14:54:12.0011164-07:00" />
  </meta>
  <contained>
    <ServiceRequest>
      <id value="referral" />
      <status value="completed" />
      <intent value="order" />
      <subject>
        <reference value="urn:uuid:8cb876ad-9376-4685-827d-3f947a144abe" />
      </subject>
      <requester>
        <reference value="urn:uuid:0000016d-3a85-4cca-0000-00000000305c" />
      </requester>
      <performer>
        <reference value="urn:uuid:0000016d-3a85-4cca-0000-00000000305c" />
      </performer>
    </ServiceRequest>
  </contained>
  <contained>
    <Coverage>
      <id value="coverage" />
      <status value="active" />
      <type>
        <text value="NO_INSURANCE" />
      </type>
      <beneficiary>
        <reference value="urn:uuid:8cb876ad-9376-4685-827d-3f947a144abe" />
      </beneficiary>
      <payor>
        <display value="NO_INSURANCE" />
      </payor>
    </Coverage>
  </contained>
  <identifier>
    <system value="https://bluebutton.cms.gov/resources/variables/clm_id" />
    <value value="6d14ad7a-fb2c-40a6-b4c0-e2d5b7c3499a" />
  </identifier>
  <identifier>
    <system value="https://bluebutton.cms.gov/resources/identifier/claim-group" />
    <value value="99999999999" />
  </identifier>
  <status value="active" />
  <type>
    <coding>
      <system value="http://terminology.hl7.org/CodeSystem/claim-type" />
      <code value="institutional" />
    </coding>
  </type>
  <use value="claim" />
  <patient>
    <reference value="urn:uuid:8cb876ad-9376-4685-827d-3f947a144abe" />
  </patient>
  <billablePeriod>
    <start value="2010-12-27T17:02:50-05:00" />
    <end value="2011-12-27T17:02:50-05:00" />
  </billablePeriod>
  <created value="2010-12-27T17:02:50-05:00" />
  <insurer>
    <display value="NO_INSURANCE" />
  </insurer>
  <provider>
    <reference value="urn:uuid:0000016d-3a85-4cca-0000-00000000305c" />
  </provider>
  <referral>
    <reference value="#referral" />
  </referral>
  <claim>
    <reference value="urn:uuid:6d14ad7a-fb2c-40a6-b4c0-e2d5b7c3499a" />
  </claim>
  <outcome value="complete" />
  <careTeam>
    <sequence value="1" />
    <provider>
      <reference value="urn:uuid:0000016d-3a85-4cca-0000-00000000305c" />
    </provider>
    <role>
      <coding>
        <system value="http://terminology.hl7.org/CodeSystem/claimcareteamrole" />
        <code value="primary" />
        <display value="Primary Care Practitioner" />
      </coding>
    </role>
  </careTeam>
  <insurance>
    <focal value="true" />
    <coverage>
      <reference value="#coverage" />
      <display value="NO_INSURANCE" />
    </coverage>
  </insurance>
  <item>
    <sequence value="1" />
    <category>
      <coding>
        <system value="https://bluebutton.cms.gov/resources/variables/line_cms_type_srvc_cd" />
        <code value="1" />
        <display value="Medical care" />
      </coding>
    </category>
    <productOrService>
      <coding>
        <system value="http://snomed.info/sct" />
        <code value="162673000" />
        <display value="General examination of patient (procedure)" />
      </coding>
      <text value="General examination of patient (procedure)" />
    </productOrService>
    <servicedPeriod>
      <start value="2010-12-27T16:32:50-05:00" />
      <end value="2010-12-27T17:02:50-05:00" />
    </servicedPeriod>
    <locationCodeableConcept>
      <coding>
        <system value="http://terminology.hl7.org/CodeSystem/ex-serviceplace" />
        <code value="19" />
        <display value="Off Campus-Outpatient Hospital" />
      </coding>
    </locationCodeableConcept>
    <encounter>
      <reference value="urn:uuid:9d23de11-9e3b-4829-97b3-d7ea0afce579" />
    </encounter>
  </item>
  <item>
    <sequence value="2" />
    <informationSequence value="1" />
    <category>
      <coding>
        <system value="https://bluebutton.cms.gov/resources/variables/line_cms_type_srvc_cd" />
        <code value="1" />
        <display value="Medical care" />
      </coding>
    </category>
    <productOrService>
      <coding>
        <system value="http://hl7.org/fhir/sid/cvx" />
        <code value="140" />
        <display value="Influenza, seasonal, injectable, preservative free" />
      </coding>
      <text value="Influenza, seasonal, injectable, preservative free" />
    </productOrService>
    <servicedPeriod>
      <start value="2010-12-27T16:32:50-05:00" />
      <end value="2010-12-27T17:02:50-05:00" />
    </servicedPeriod>
    <locationCodeableConcept>
      <coding>
        <system value="http://terminology.hl7.org/CodeSystem/ex-serviceplace" />
        <code value="19" />
        <display value="Off Campus-Outpatient Hospital" />
      </coding>
    </locationCodeableConcept>
    <net>
      <value value="140.52" />
      <currency value="USD" />
    </net>
    <adjudication>
      <category>
        <coding>
          <system value="https://bluebutton.cms.gov/resources/codesystem/adjudication" />
          <code value="https://bluebutton.cms.gov/resources/variables/line_coinsrnc_amt" />
          <display value="Line Beneficiary Coinsurance Amount" />
        </coding>
      </category>
      <amount>
        <value value="28.104000000000003" />
        <currency value="USD" />
      </amount>
    </adjudication>
    <adjudication>
      <category>
        <coding>
          <system value="https://bluebutton.cms.gov/resources/codesystem/adjudication" />
          <code value="https://bluebutton.cms.gov/resources/variables/line_prvdr_pmt_amt" />
          <display value="Line Provider Payment Amount" />
        </coding>
      </category>
      <amount>
        <value value="112.41600000000001" />
        <currency value="USD" />
      </amount>
    </adjudication>
    <adjudication>
      <category>
        <coding>
          <system value="https://bluebutton.cms.gov/resources/codesystem/adjudication" />
          <code value="https://bluebutton.cms.gov/resources/variables/line_sbmtd_chrg_amt" />
          <display value="Line Submitted Charge Amount" />
        </coding>
      </category>
      <amount>
        <value value="140.52" />
        <currency value="USD" />
      </amount>
    </adjudication>
    <adjudication>
      <category>
        <coding>
          <system value="https://bluebutton.cms.gov/resources/codesystem/adjudication" />
          <code value="https://bluebutton.cms.gov/resources/variables/line_alowd_chrg_amt" />
          <display value="Line Allowed Charge Amount" />
        </coding>
      </category>
      <amount>
        <value value="140.52" />
        <currency value="USD" />
      </amount>
    </adjudication>
    <adjudication>
      <category>
        <coding>
          <system value="https://bluebutton.cms.gov/resources/codesystem/adjudication" />
          <code value="https://bluebutton.cms.gov/resources/variables/line_bene_ptb_ddctbl_amt" />
          <display value="Line Beneficiary Part B Deductible Amount" />
        </coding>
      </category>
      <amount>
        <value value="0" />
        <currency value="USD" />
      </amount>
    </adjudication>
    <adjudication>
      <category>
        <coding>
          <system value="https://bluebutton.cms.gov/resources/codesystem/adjudication" />
          <code value="https://bluebutton.cms.gov/resources/variables/line_prcsg_ind_cd" />
          <display value="Line Processing Indicator Code" />
        </coding>
      </category>
    </adjudication>
  </item>
  <item>
    <sequence value="3" />
    <category>
      <coding>
        <system value="https://bluebutton.cms.gov/resources/variables/line_cms_type_srvc_cd" />
        <code value="1" />
        <display value="Medical care" />
      </coding>
    </category>
    <productOrService>
      <coding>
        <system value="http://snomed.info/sct" />
        <code value="430193006" />
        <display value="Medication Reconciliation (procedure)" />
      </coding>
      <text value="Medication Reconciliation (procedure)" />
    </productOrService>
    <servicedPeriod>
      <start value="2010-12-27T16:32:50-05:00" />
      <end value="2010-12-27T17:02:50-05:00" />
    </servicedPeriod>
    <locationCodeableConcept>
      <coding>
        <system value="http://terminology.hl7.org/CodeSystem/ex-serviceplace" />
        <code value="19" />
        <display value="Off Campus-Outpatient Hospital" />
      </coding>
    </locationCodeableConcept>
    <net>
      <value value="444.87" />
      <currency value="USD" />
    </net>
    <adjudication>
      <category>
        <coding>
          <system value="https://bluebutton.cms.gov/resources/codesystem/adjudication" />
          <code value="https://bluebutton.cms.gov/resources/variables/line_coinsrnc_amt" />
          <display value="Line Beneficiary Coinsurance Amount" />
        </coding>
      </category>
      <amount>
        <value value="88.974" />
        <currency value="USD" />
      </amount>
    </adjudication>
    <adjudication>
      <category>
        <coding>
          <system value="https://bluebutton.cms.gov/resources/codesystem/adjudication" />
          <code value="https://bluebutton.cms.gov/resources/variables/line_prvdr_pmt_amt" />
          <display value="Line Provider Payment Amount" />
        </coding>
      </category>
      <amount>
        <value value="355.896" />
        <currency value="USD" />
      </amount>
    </adjudication>
    <adjudication>
      <category>
        <coding>
          <system value="https://bluebutton.cms.gov/resources/codesystem/adjudication" />
          <code value="https://bluebutton.cms.gov/resources/variables/line_sbmtd_chrg_amt" />
          <display value="Line Submitted Charge Amount" />
        </coding>
      </category>
      <amount>
        <value value="444.87" />
        <currency value="USD" />
      </amount>
    </adjudication>
    <adjudication>
      <category>
        <coding>
          <system value="https://bluebutton.cms.gov/resources/codesystem/adjudication" />
          <code value="https://bluebutton.cms.gov/resources/variables/line_alowd_chrg_amt" />
          <display value="Line Allowed Charge Amount" />
        </coding>
      </category>
      <amount>
        <value value="444.87" />
        <currency value="USD" />
      </amount>
    </adjudication>
    <adjudication>
      <category>
        <coding>
          <system value="https://bluebutton.cms.gov/resources/codesystem/adjudication" />
          <code value="https://bluebutton.cms.gov/resources/variables/line_bene_ptb_ddctbl_amt" />
          <display value="Line Beneficiary Part B Deductible Amount" />
        </coding>
      </category>
      <amount>
        <value value="0" />
        <currency value="USD" />
      </amount>
    </adjudication>
    <adjudication>
      <category>
        <coding>
          <system value="https://bluebutton.cms.gov/resources/codesystem/adjudication" />
          <code value="https://bluebutton.cms.gov/resources/variables/line_prcsg_ind_cd" />
          <display value="Line Processing Indicator Code" />
        </coding>
      </category>
    </adjudication>
  </item>
  <total>
    <category>
      <coding>
        <system value="http://terminology.hl7.org/CodeSystem/adjudication" />
        <code value="submitted" />
        <display value="Submitted Amount" />
      </coding>
      <text value="Submitted Amount" />
    </category>
    <amount>
      <value value="129.16" />
      <currency value="USD" />
    </amount>
  </total>
  <payment>
    <amount>
      <value value="468.312" />
      <currency value="USD" />
    </amount>
  </payment>
</ExplanationOfBenefit>