<ExplanationOfBenefit xmlns="http://hl7.org/fhir">
  <id value="c9980523b26e4a3b94c6950bb22cb8c4" />
  <meta>
    <versionId value="1" />
    <lastUpdated value="2023-05-18T14:54:08.468493-07:00" />
  </meta>
  <contained>
    <ServiceRequest>
      <id value="referral" />
      <status value="completed" />
      <intent value="order" />
      <subject>
        <reference value="urn:uuid:ad60b8d9-6125-4814-9836-bda34011fe5c" />
      </subject>
      <requester>
        <reference value="urn:uuid:0000016d-3a85-4cca-0000-00000000000a" />
      </requester>
      <performer>
        <reference value="urn:uuid:0000016d-3a85-4cca-0000-00000000000a" />
      </performer>
    </ServiceRequest>
  </contained>
  <contained>
    <Coverage>
      <id value="coverage" />
      <status value="active" />
      <type>
        <text value="Cigna Health" />
      </type>
      <beneficiary>
        <reference value="urn:uuid:ad60b8d9-6125-4814-9836-bda34011fe5c" />
      </beneficiary>
      <payor>
        <display value="Cigna Health" />
      </payor>
    </Coverage>
  </contained>
  <identifier>
    <system value="https://bluebutton.cms.gov/resources/variables/clm_id" />
    <value value="c5b81811-fd98-4ee2-85ca-741cc75fb444" />
  </identifier>
  <identifier>
    <system value="https://bluebutton.cms.gov/resources/identifier/claim-group" />
    <value value="99999999999" />
  </identifier>
  <status value="active" />
  <type>
    <coding>
      <system value="http://terminology.hl7.org/CodeSystem/claim-type" />
      <code value="institutional" />
    </coding>
  </type>
  <use value="claim" />
  <patient>
    <reference value="urn:uuid:ad60b8d9-6125-4814-9836-bda34011fe5c" />
  </patient>
  <billablePeriod>
    <start value="2015-05-11T09:41:34-04:00" />
    <end value="2016-05-11T09:41:34-04:00" />
  </billablePeriod>
  <created value="2015-05-11T09:41:34-04:00" />
  <insurer>
    <display value="Cigna Health" />
  </insurer>
  <provider>
    <reference value="urn:uuid:0000016d-3a85-4cca-0000-00000000000a" />
  </provider>
  <referral>
    <reference value="#referral" />
  </referral>
  <claim>
    <reference value="urn:uuid:c5b81811-fd98-4ee2-85ca-741cc75fb444" />
  </claim>
  <outcome value="complete" />
  <careTeam>
    <sequence value="1" />
    <provider>
      <reference value="urn:uuid:0000016d-3a85-4cca-0000-00000000000a" />
    </provider>
    <role>
      <coding>
        <system value="http://terminology.hl7.org/CodeSystem/claimcareteamrole" />
        <code value="primary" />
        <display value="Primary Care Practitioner" />
      </coding>
    </role>
  </careTeam>
  <diagnosis>
    <sequence value="1" />
    <diagnosisReference>
      <reference value="urn:uuid:7455a3b4-549c-4c1f-9aec-aa3d056d334b" />
    </diagnosisReference>
    <type>
      <coding>
        <system value="http://terminology.hl7.org/CodeSystem/ex-diagnosistype" />
        <code value="principal" />
      </coding>
    </type>
  </diagnosis>
  <insurance>
    <focal value="true" />
    <coverage>
      <reference value="#coverage" />
      <display value="Cigna Health" />
    </coverage>
  </insurance>
  <item>
    <sequence value="1" />
    <category>
      <coding>
        <system value="https://bluebutton.cms.gov/resources/variables/line_cms_type_srvc_cd" />
        <code value="1" />
        <display value="Medical care" />
      </coding>
    </category>
    <productOrService>
      <coding>
        <system value="http://snomed.info/sct" />
        <code value="50849002" />
        <display value="Emergency room admission (procedure)" />
      </coding>
      <text value="Emergency room admission (procedure)" />
    </productOrService>
    <servicedPeriod>
      <start value="2015-05-11T08:41:34-04:00" />
      <end value="2015-05-11T09:41:34-04:00" />
    </servicedPeriod>
    <locationCodeableConcept>
      <coding>
        <system value="http://terminology.hl7.org/CodeSystem/ex-serviceplace" />
        <code value="20" />
        <display value="Urgent Care Facility" />
      </coding>
    </locationCodeableConcept>
    <encounter>
      <reference value="urn:uuid:765b7916-94c8-4cc5-9cf7-910c78ced155" />
    </encounter>
  </item>
  <item>
    <sequence value="2" />
    <diagnosisSequence value="1" />
    <category>
      <coding>
        <system value="https://bluebutton.cms.gov/resources/variables/line_cms_type_srvc_cd" />
        <code value="1" />
        <display value="Medical care" />
      </coding>
    </category>
    <productOrService>
      <coding>
        <system value="http://snomed.info/sct" />
        <code value="403190006" />
        <display value="First degree burn" />
      </coding>
      <text value="First degree burn" />
    </productOrService>
    <servicedPeriod>
      <start value="2015-05-11T08:41:34-04:00" />
      <end value="2015-05-11T09:41:34-04:00" />
    </servicedPeriod>
    <locationCodeableConcept>
      <coding>
        <system value="http://terminology.hl7.org/CodeSystem/ex-serviceplace" />
        <code value="20" />
        <display value="Urgent Care Facility" />
      </coding>
    </locationCodeableConcept>
  </item>
  <total>
    <category>
      <coding>
        <system value="http://terminology.hl7.org/CodeSystem/adjudication" />
        <code value="submitted" />
        <display value="Submitted Amount" />
      </coding>
      <text value="Submitted Amount" />
    </category>
    <amount>
      <value value="129.16" />
      <currency value="USD" />
    </amount>
  </total>
  <payment>
    <amount>
      <value value="0.0" />
      <currency value="USD" />
    </amount>
  </payment>
</ExplanationOfBenefit>