<ExplanationOfBenefit xmlns="http://hl7.org/fhir">
  <id value="bfe8fda31e9e4311a770b93d44ded320" />
  <meta>
    <versionId value="1" />
    <lastUpdated value="2023-05-18T14:54:17.9473837-07:00" />
  </meta>
  <contained>
    <ServiceRequest>
      <id value="referral" />
      <status value="completed" />
      <intent value="order" />
      <subject>
        <reference value="urn:uuid:84214c96-dad0-4b63-ad9b-589246ef432d" />
      </subject>
      <requester>
        <reference value="urn:uuid:0000016d-3a85-4cca-0000-000000000082" />
      </requester>
      <performer>
        <reference value="urn:uuid:0000016d-3a85-4cca-0000-000000000082" />
      </performer>
    </ServiceRequest>
  </contained>
  <contained>
    <Coverage>
      <id value="coverage" />
      <status value="active" />
      <type>
        <text value="Medicaid" />
      </type>
      <beneficiary>
        <reference value="urn:uuid:84214c96-dad0-4b63-ad9b-589246ef432d" />
      </beneficiary>
      <payor>
        <display value="Medicaid" />
      </payor>
    </Coverage>
  </contained>
  <identifier>
    <system value="https://bluebutton.cms.gov/resources/variables/clm_id" />
    <value value="3b24e64d-8567-41cd-a153-3a3c72fdf081" />
  </identifier>
  <identifier>
    <system value="https://bluebutton.cms.gov/resources/identifier/claim-group" />
    <value value="99999999999" />
  </identifier>
  <status value="active" />
  <type>
    <coding>
      <system value="http://terminology.hl7.org/CodeSystem/claim-type" />
      <code value="institutional" />
    </coding>
  </type>
  <use value="claim" />
  <patient>
    <reference value="urn:uuid:84214c96-dad0-4b63-ad9b-589246ef432d" />
  </patient>
  <billablePeriod>
    <start value="1999-11-03T12:10:52-05:00" />
    <end value="2000-11-03T12:10:52-05:00" />
  </billablePeriod>
  <created value="1999-11-03T12:10:52-05:00" />
  <insurer>
    <display value="Medicaid" />
  </insurer>
  <provider>
    <reference value="urn:uuid:0000016d-3a85-4cca-0000-000000000082" />
  </provider>
  <referral>
    <reference value="#referral" />
  </referral>
  <claim>
    <reference value="urn:uuid:3b24e64d-8567-41cd-a153-3a3c72fdf081" />
  </claim>
  <outcome value="complete" />
  <careTeam>
    <sequence value="1" />
    <provider>
      <reference value="urn:uuid:0000016d-3a85-4cca-0000-000000000082" />
    </provider>
    <role>
      <coding>
        <system value="http://terminology.hl7.org/CodeSystem/claimcareteamrole" />
        <code value="primary" />
        <display value="Primary Care Practitioner" />
      </coding>
    </role>
  </careTeam>
  <diagnosis>
    <sequence value="1" />
    <diagnosisReference>
      <reference value="urn:uuid:05ce22e7-d5cb-4f86-8aa2-7922e6691e37" />
    </diagnosisReference>
    <type>
      <coding>
        <system value="http://terminology.hl7.org/CodeSystem/ex-diagnosistype" />
        <code value="principal" />
      </coding>
    </type>
  </diagnosis>
  <insurance>
    <focal value="true" />
    <coverage>
      <reference value="#coverage" />
      <display value="Medicaid" />
    </coverage>
  </insurance>
  <item>
    <sequence value="1" />
    <category>
      <coding>
        <system value="https://bluebutton.cms.gov/resources/variables/line_cms_type_srvc_cd" />
        <code value="1" />
        <display value="Medical care" />
      </coding>
    </category>
    <productOrService>
      <coding>
        <system value="http://snomed.info/sct" />
        <code value="50849002" />
        <display value="Emergency room admission (procedure)" />
      </coding>
      <text value="Emergency room admission (procedure)" />
    </productOrService>
    <servicedPeriod>
      <start value="1999-11-03T11:10:52-05:00" />
      <end value="1999-11-03T12:10:52-05:00" />
    </servicedPeriod>
    <locationCodeableConcept>
      <coding>
        <system value="http://terminology.hl7.org/CodeSystem/ex-serviceplace" />
        <code value="20" />
        <display value="Urgent Care Facility" />
      </coding>
    </locationCodeableConcept>
    <encounter>
      <reference value="urn:uuid:89e11db5-83ce-43d0-b0cc-c3b075177643" />
    </encounter>
  </item>
  <item>
    <sequence value="2" />
    <diagnosisSequence value="1" />
    <category>
      <coding>
        <system value="https://bluebutton.cms.gov/resources/variables/line_cms_type_srvc_cd" />
        <code value="1" />
        <display value="Medical care" />
      </coding>
    </category>
    <productOrService>
      <coding>
        <system value="http://snomed.info/sct" />
        <code value="110030002" />
        <display value="Concussion injury of brain" />
      </coding>
      <text value="Concussion injury of brain" />
    </productOrService>
    <servicedPeriod>
      <start value="1999-11-03T11:10:52-05:00" />
      <end value="1999-11-03T12:10:52-05:00" />
    </servicedPeriod>
    <locationCodeableConcept>
      <coding>
        <system value="http://terminology.hl7.org/CodeSystem/ex-serviceplace" />
        <code value="20" />
        <display value="Urgent Care Facility" />
      </coding>
    </locationCodeableConcept>
  </item>
  <total>
    <category>
      <coding>
        <system value="http://terminology.hl7.org/CodeSystem/adjudication" />
        <code value="submitted" />
        <display value="Submitted Amount" />
      </coding>
      <text value="Submitted Amount" />
    </category>
    <amount>
      <value value="129.16" />
      <currency value="USD" />
    </amount>
  </total>
  <payment>
    <amount>
      <value value="0.0" />
      <currency value="USD" />
    </amount>
  </payment>
</ExplanationOfBenefit>