<ExplanationOfBenefit xmlns="http://hl7.org/fhir">
  <id value="2dbecbe4b3b746d1856431f466e34712" />
  <meta>
    <versionId value="1" />
    <lastUpdated value="2023-05-18T14:54:16.3582346-07:00" />
  </meta>
  <contained>
    <ServiceRequest>
      <id value="referral" />
      <status value="completed" />
      <intent value="order" />
      <subject>
        <reference value="urn:uuid:eed483f7-c02a-4a74-bbed-1ca1029765f1" />
      </subject>
      <requester>
        <reference value="urn:uuid:0000016d-3a85-4cca-0000-0000000001e0" />
      </requester>
      <performer>
        <reference value="urn:uuid:0000016d-3a85-4cca-0000-0000000001e0" />
      </performer>
    </ServiceRequest>
  </contained>
  <contained>
    <Coverage>
      <id value="coverage" />
      <status value="active" />
      <type>
        <text value="Medicaid" />
      </type>
      <beneficiary>
        <reference value="urn:uuid:eed483f7-c02a-4a74-bbed-1ca1029765f1" />
      </beneficiary>
      <payor>
        <display value="Medicaid" />
      </payor>
    </Coverage>
  </contained>
  <identifier>
    <system value="https://bluebutton.cms.gov/resources/variables/clm_id" />
    <value value="58b3a335-c641-4537-9cb3-dd45d43f73a6" />
  </identifier>
  <identifier>
    <system value="https://bluebutton.cms.gov/resources/identifier/claim-group" />
    <value value="99999999999" />
  </identifier>
  <status value="active" />
  <type>
    <coding>
      <system value="http://terminology.hl7.org/CodeSystem/claim-type" />
      <code value="institutional" />
    </coding>
  </type>
  <use value="claim" />
  <patient>
    <reference value="urn:uuid:eed483f7-c02a-4a74-bbed-1ca1029765f1" />
  </patient>
  <billablePeriod>
    <start value="2019-08-17T19:11:16-04:00" />
    <end value="2020-08-17T19:11:16-04:00" />
  </billablePeriod>
  <created value="2019-08-17T19:11:16-04:00" />
  <insurer>
    <display value="Medicaid" />
  </insurer>
  <provider>
    <reference value="urn:uuid:0000016d-3a85-4cca-0000-0000000001e0" />
  </provider>
  <referral>
    <reference value="#referral" />
  </referral>
  <claim>
    <reference value="urn:uuid:58b3a335-c641-4537-9cb3-dd45d43f73a6" />
  </claim>
  <outcome value="complete" />
  <careTeam>
    <sequence value="1" />
    <provider>
      <reference value="urn:uuid:0000016d-3a85-4cca-0000-0000000001e0" />
    </provider>
    <role>
      <coding>
        <system value="http://terminology.hl7.org/CodeSystem/claimcareteamrole" />
        <code value="primary" />
        <display value="Primary Care Practitioner" />
      </coding>
    </role>
  </careTeam>
  <diagnosis>
    <sequence value="1" />
    <diagnosisReference>
      <reference value="urn:uuid:ef4d1c26-1328-4c53-a003-870de749ece7" />
    </diagnosisReference>
    <type>
      <coding>
        <system value="http://terminology.hl7.org/CodeSystem/ex-diagnosistype" />
        <code value="principal" />
      </coding>
    </type>
  </diagnosis>
  <insurance>
    <focal value="true" />
    <coverage>
      <reference value="#coverage" />
      <display value="Medicaid" />
    </coverage>
  </insurance>
  <item>
    <sequence value="1" />
    <category>
      <coding>
        <system value="https://bluebutton.cms.gov/resources/variables/line_cms_type_srvc_cd" />
        <code value="1" />
        <display value="Medical care" />
      </coding>
    </category>
    <productOrService>
      <coding>
        <system value="http://snomed.info/sct" />
        <code value="185345009" />
        <display value="Encounter for symptom" />
      </coding>
      <text value="Encounter for symptom" />
    </productOrService>
    <servicedPeriod>
      <start value="2019-08-17T18:56:16-04:00" />
      <end value="2019-08-17T19:11:16-04:00" />
    </servicedPeriod>
    <locationCodeableConcept>
      <coding>
        <system value="http://terminology.hl7.org/CodeSystem/ex-serviceplace" />
        <code value="21" />
        <display value="Inpatient Hospital" />
      </coding>
    </locationCodeableConcept>
    <encounter>
      <reference value="urn:uuid:854222fa-1e0b-44a1-9c74-1cce40ca1ce2" />
    </encounter>
  </item>
  <item>
    <sequence value="2" />
    <diagnosisSequence value="1" />
    <category>
      <coding>
        <system value="https://bluebutton.cms.gov/resources/variables/line_cms_type_srvc_cd" />
        <code value="1" />
        <display value="Medical care" />
      </coding>
    </category>
    <productOrService>
      <coding>
        <system value="http://snomed.info/sct" />
        <code value="65363002" />
        <display value="Otitis media" />
      </coding>
      <text value="Otitis media" />
    </productOrService>
    <servicedPeriod>
      <start value="2019-08-17T18:56:16-04:00" />
      <end value="2019-08-17T19:11:16-04:00" />
    </servicedPeriod>
    <locationCodeableConcept>
      <coding>
        <system value="http://terminology.hl7.org/CodeSystem/ex-serviceplace" />
        <code value="21" />
        <display value="Inpatient Hospital" />
      </coding>
    </locationCodeableConcept>
  </item>
  <total>
    <category>
      <coding>
        <system value="http://terminology.hl7.org/CodeSystem/adjudication" />
        <code value="submitted" />
        <display value="Submitted Amount" />
      </coding>
      <text value="Submitted Amount" />
    </category>
    <amount>
      <value value="129.16" />
      <currency value="USD" />
    </amount>
  </total>
  <payment>
    <amount>
      <value value="0.0" />
      <currency value="USD" />
    </amount>
  </payment>
</ExplanationOfBenefit>