<ExplanationOfBenefit xmlns="http://hl7.org/fhir">
  <id value="4fffe51a39044af8af4b8591a60ed169" />
  <meta>
    <versionId value="1" />
    <lastUpdated value="2023-05-18T14:54:15.3957804-07:00" />
  </meta>
  <contained>
    <ServiceRequest>
      <id value="referral" />
      <status value="completed" />
      <intent value="order" />
      <subject>
        <reference value="urn:uuid:5a45527f-a341-433b-bc62-106725a2956c" />
      </subject>
      <requester>
        <reference value="urn:uuid:0000016d-3a85-4cca-0000-00000000fa96" />
      </requester>
      <performer>
        <reference value="urn:uuid:0000016d-3a85-4cca-0000-00000000fa96" />
      </performer>
    </ServiceRequest>
  </contained>
  <contained>
    <Coverage>
      <id value="coverage" />
      <status value="active" />
      <type>
        <text value="Cigna Health" />
      </type>
      <beneficiary>
        <reference value="urn:uuid:5a45527f-a341-433b-bc62-106725a2956c" />
      </beneficiary>
      <payor>
        <display value="Cigna Health" />
      </payor>
    </Coverage>
  </contained>
  <identifier>
    <system value="https://bluebutton.cms.gov/resources/variables/clm_id" />
    <value value="ae9467ff-8447-4ab3-b5f3-11c8c1655eca" />
  </identifier>
  <identifier>
    <system value="https://bluebutton.cms.gov/resources/identifier/claim-group" />
    <value value="99999999999" />
  </identifier>
  <status value="active" />
  <type>
    <coding>
      <system value="http://terminology.hl7.org/CodeSystem/claim-type" />
      <code value="institutional" />
    </coding>
  </type>
  <use value="claim" />
  <patient>
    <reference value="urn:uuid:5a45527f-a341-433b-bc62-106725a2956c" />
  </patient>
  <billablePeriod>
    <start value="2017-10-17T04:17:35-04:00" />
    <end value="2018-10-17T04:17:35-04:00" />
  </billablePeriod>
  <created value="2017-10-17T04:17:35-04:00" />
  <insurer>
    <display value="Cigna Health" />
  </insurer>
  <provider>
    <reference value="urn:uuid:0000016d-3a85-4cca-0000-00000000fa96" />
  </provider>
  <referral>
    <reference value="#referral" />
  </referral>
  <claim>
    <reference value="urn:uuid:ae9467ff-8447-4ab3-b5f3-11c8c1655eca" />
  </claim>
  <outcome value="complete" />
  <careTeam>
    <sequence value="1" />
    <provider>
      <reference value="urn:uuid:0000016d-3a85-4cca-0000-00000000fa96" />
    </provider>
    <role>
      <coding>
        <system value="http://terminology.hl7.org/CodeSystem/claimcareteamrole" />
        <code value="primary" />
        <display value="Primary Care Practitioner" />
      </coding>
    </role>
  </careTeam>
  <diagnosis>
    <sequence value="1" />
    <diagnosisReference>
      <reference value="urn:uuid:f73f0824-1e6b-4838-86b9-9704e8e883ac" />
    </diagnosisReference>
    <type>
      <coding>
        <system value="http://terminology.hl7.org/CodeSystem/ex-diagnosistype" />
        <code value="principal" />
      </coding>
    </type>
  </diagnosis>
  <insurance>
    <focal value="true" />
    <coverage>
      <reference value="#coverage" />
      <display value="Cigna Health" />
    </coverage>
  </insurance>
  <item>
    <sequence value="1" />
    <category>
      <coding>
        <system value="https://bluebutton.cms.gov/resources/variables/line_cms_type_srvc_cd" />
        <code value="1" />
        <display value="Medical care" />
      </coding>
    </category>
    <productOrService>
      <coding>
        <system value="http://snomed.info/sct" />
        <code value="162673000" />
        <display value="General examination of patient (procedure)" />
      </coding>
      <text value="General examination of patient (procedure)" />
    </productOrService>
    <servicedPeriod>
      <start value="2017-10-17T03:47:35-04:00" />
      <end value="2017-10-17T04:17:35-04:00" />
    </servicedPeriod>
    <locationCodeableConcept>
      <coding>
        <system value="http://terminology.hl7.org/CodeSystem/ex-serviceplace" />
        <code value="19" />
        <display value="Off Campus-Outpatient Hospital" />
      </coding>
    </locationCodeableConcept>
    <encounter>
      <reference value="urn:uuid:8d8c82b6-6e4f-4bb0-bd46-7cd4347c366f" />
    </encounter>
  </item>
  <item>
    <sequence value="2" />
    <informationSequence value="1" />
    <category>
      <coding>
        <system value="https://bluebutton.cms.gov/resources/variables/line_cms_type_srvc_cd" />
        <code value="1" />
        <display value="Medical care" />
      </coding>
    </category>
    <productOrService>
      <coding>
        <system value="http://hl7.org/fhir/sid/cvx" />
        <code value="140" />
        <display value="Influenza, seasonal, injectable, preservative free" />
      </coding>
      <text value="Influenza, seasonal, injectable, preservative free" />
    </productOrService>
    <servicedPeriod>
      <start value="2017-10-17T03:47:35-04:00" />
      <end value="2017-10-17T04:17:35-04:00" />
    </servicedPeriod>
    <locationCodeableConcept>
      <coding>
        <system value="http://terminology.hl7.org/CodeSystem/ex-serviceplace" />
        <code value="19" />
        <display value="Off Campus-Outpatient Hospital" />
      </coding>
    </locationCodeableConcept>
    <net>
      <value value="140.52" />
      <currency value="USD" />
    </net>
    <adjudication>
      <category>
        <coding>
          <system value="https://bluebutton.cms.gov/resources/codesystem/adjudication" />
          <code value="https://bluebutton.cms.gov/resources/variables/line_coinsrnc_amt" />
          <display value="Line Beneficiary Coinsurance Amount" />
        </coding>
      </category>
      <amount>
        <value value="28.104000000000003" />
        <currency value="USD" />
      </amount>
    </adjudication>
    <adjudication>
      <category>
        <coding>
          <system value="https://bluebutton.cms.gov/resources/codesystem/adjudication" />
          <code value="https://bluebutton.cms.gov/resources/variables/line_prvdr_pmt_amt" />
          <display value="Line Provider Payment Amount" />
        </coding>
      </category>
      <amount>
        <value value="112.41600000000001" />
        <currency value="USD" />
      </amount>
    </adjudication>
    <adjudication>
      <category>
        <coding>
          <system value="https://bluebutton.cms.gov/resources/codesystem/adjudication" />
          <code value="https://bluebutton.cms.gov/resources/variables/line_sbmtd_chrg_amt" />
          <display value="Line Submitted Charge Amount" />
        </coding>
      </category>
      <amount>
        <value value="140.52" />
        <currency value="USD" />
      </amount>
    </adjudication>
    <adjudication>
      <category>
        <coding>
          <system value="https://bluebutton.cms.gov/resources/codesystem/adjudication" />
          <code value="https://bluebutton.cms.gov/resources/variables/line_alowd_chrg_amt" />
          <display value="Line Allowed Charge Amount" />
        </coding>
      </category>
      <amount>
        <value value="140.52" />
        <currency value="USD" />
      </amount>
    </adjudication>
    <adjudication>
      <category>
        <coding>
          <system value="https://bluebutton.cms.gov/resources/codesystem/adjudication" />
          <code value="https://bluebutton.cms.gov/resources/variables/line_bene_ptb_ddctbl_amt" />
          <display value="Line Beneficiary Part B Deductible Amount" />
        </coding>
      </category>
      <amount>
        <value value="0" />
        <currency value="USD" />
      </amount>
    </adjudication>
    <adjudication>
      <category>
        <coding>
          <system value="https://bluebutton.cms.gov/resources/codesystem/adjudication" />
          <code value="https://bluebutton.cms.gov/resources/variables/line_prcsg_ind_cd" />
          <display value="Line Processing Indicator Code" />
        </coding>
      </category>
    </adjudication>
  </item>
  <item>
    <sequence value="3" />
    <informationSequence value="2" />
    <category>
      <coding>
        <system value="https://bluebutton.cms.gov/resources/variables/line_cms_type_srvc_cd" />
        <code value="1" />
        <display value="Medical care" />
      </coding>
    </category>
    <productOrService>
      <coding>
        <system value="http://hl7.org/fhir/sid/cvx" />
        <code value="113" />
        <display value="Td (adult) preservative free" />
      </coding>
      <text value="Td (adult) preservative free" />
    </productOrService>
    <servicedPeriod>
      <start value="2017-10-17T03:47:35-04:00" />
      <end value="2017-10-17T04:17:35-04:00" />
    </servicedPeriod>
    <locationCodeableConcept>
      <coding>
        <system value="http://terminology.hl7.org/CodeSystem/ex-serviceplace" />
        <code value="19" />
        <display value="Off Campus-Outpatient Hospital" />
      </coding>
    </locationCodeableConcept>
    <net>
      <value value="140.52" />
      <currency value="USD" />
    </net>
    <adjudication>
      <category>
        <coding>
          <system value="https://bluebutton.cms.gov/resources/codesystem/adjudication" />
          <code value="https://bluebutton.cms.gov/resources/variables/line_coinsrnc_amt" />
          <display value="Line Beneficiary Coinsurance Amount" />
        </coding>
      </category>
      <amount>
        <value value="28.104000000000003" />
        <currency value="USD" />
      </amount>
    </adjudication>
    <adjudication>
      <category>
        <coding>
          <system value="https://bluebutton.cms.gov/resources/codesystem/adjudication" />
          <code value="https://bluebutton.cms.gov/resources/variables/line_prvdr_pmt_amt" />
          <display value="Line Provider Payment Amount" />
        </coding>
      </category>
      <amount>
        <value value="112.41600000000001" />
        <currency value="USD" />
      </amount>
    </adjudication>
    <adjudication>
      <category>
        <coding>
          <system value="https://bluebutton.cms.gov/resources/codesystem/adjudication" />
          <code value="https://bluebutton.cms.gov/resources/variables/line_sbmtd_chrg_amt" />
          <display value="Line Submitted Charge Amount" />
        </coding>
      </category>
      <amount>
        <value value="140.52" />
        <currency value="USD" />
      </amount>
    </adjudication>
    <adjudication>
      <category>
        <coding>
          <system value="https://bluebutton.cms.gov/resources/codesystem/adjudication" />
          <code value="https://bluebutton.cms.gov/resources/variables/line_alowd_chrg_amt" />
          <display value="Line Allowed Charge Amount" />
        </coding>
      </category>
      <amount>
        <value value="140.52" />
        <currency value="USD" />
      </amount>
    </adjudication>
    <adjudication>
      <category>
        <coding>
          <system value="https://bluebutton.cms.gov/resources/codesystem/adjudication" />
          <code value="https://bluebutton.cms.gov/resources/variables/line_bene_ptb_ddctbl_amt" />
          <display value="Line Beneficiary Part B Deductible Amount" />
        </coding>
      </category>
      <amount>
        <value value="0" />
        <currency value="USD" />
      </amount>
    </adjudication>
    <adjudication>
      <category>
        <coding>
          <system value="https://bluebutton.cms.gov/resources/codesystem/adjudication" />
          <code value="https://bluebutton.cms.gov/resources/variables/line_prcsg_ind_cd" />
          <display value="Line Processing Indicator Code" />
        </coding>
      </category>
    </adjudication>
  </item>
  <item>
    <sequence value="4" />
    <informationSequence value="3" />
    <category>
      <coding>
        <system value="https://bluebutton.cms.gov/resources/variables/line_cms_type_srvc_cd" />
        <code value="1" />
        <display value="Medical care" />
      </coding>
    </category>
    <productOrService>
      <coding>
        <system value="http://hl7.org/fhir/sid/cvx" />
        <code value="52" />
        <display value="Hep A, adult" />
      </coding>
      <text value="Hep A, adult" />
    </productOrService>
    <servicedPeriod>
      <start value="2017-10-17T03:47:35-04:00" />
      <end value="2017-10-17T04:17:35-04:00" />
    </servicedPeriod>
    <locationCodeableConcept>
      <coding>
        <system value="http://terminology.hl7.org/CodeSystem/ex-serviceplace" />
        <code value="19" />
        <display value="Off Campus-Outpatient Hospital" />
      </coding>
    </locationCodeableConcept>
    <net>
      <value value="140.52" />
      <currency value="USD" />
    </net>
    <adjudication>
      <category>
        <coding>
          <system value="https://bluebutton.cms.gov/resources/codesystem/adjudication" />
          <code value="https://bluebutton.cms.gov/resources/variables/line_coinsrnc_amt" />
          <display value="Line Beneficiary Coinsurance Amount" />
        </coding>
      </category>
      <amount>
        <value value="28.104000000000003" />
        <currency value="USD" />
      </amount>
    </adjudication>
    <adjudication>
      <category>
        <coding>
          <system value="https://bluebutton.cms.gov/resources/codesystem/adjudication" />
          <code value="https://bluebutton.cms.gov/resources/variables/line_prvdr_pmt_amt" />
          <display value="Line Provider Payment Amount" />
        </coding>
      </category>
      <amount>
        <value value="112.41600000000001" />
        <currency value="USD" />
      </amount>
    </adjudication>
    <adjudication>
      <category>
        <coding>
          <system value="https://bluebutton.cms.gov/resources/codesystem/adjudication" />
          <code value="https://bluebutton.cms.gov/resources/variables/line_sbmtd_chrg_amt" />
          <display value="Line Submitted Charge Amount" />
        </coding>
      </category>
      <amount>
        <value value="140.52" />
        <currency value="USD" />
      </amount>
    </adjudication>
    <adjudication>
      <category>
        <coding>
          <system value="https://bluebutton.cms.gov/resources/codesystem/adjudication" />
          <code value="https://bluebutton.cms.gov/resources/variables/line_alowd_chrg_amt" />
          <display value="Line Allowed Charge Amount" />
        </coding>
      </category>
      <amount>
        <value value="140.52" />
        <currency value="USD" />
      </amount>
    </adjudication>
    <adjudication>
      <category>
        <coding>
          <system value="https://bluebutton.cms.gov/resources/codesystem/adjudication" />
          <code value="https://bluebutton.cms.gov/resources/variables/line_bene_ptb_ddctbl_amt" />
          <display value="Line Beneficiary Part B Deductible Amount" />
        </coding>
      </category>
      <amount>
        <value value="0" />
        <currency value="USD" />
      </amount>
    </adjudication>
    <adjudication>
      <category>
        <coding>
          <system value="https://bluebutton.cms.gov/resources/codesystem/adjudication" />
          <code value="https://bluebutton.cms.gov/resources/variables/line_prcsg_ind_cd" />
          <display value="Line Processing Indicator Code" />
        </coding>
      </category>
    </adjudication>
  </item>
  <item>
    <sequence value="5" />
    <category>
      <coding>
        <system value="https://bluebutton.cms.gov/resources/variables/line_cms_type_srvc_cd" />
        <code value="1" />
        <display value="Medical care" />
      </coding>
    </category>
    <productOrService>
      <coding>
        <system value="http://snomed.info/sct" />
        <code value="430193006" />
        <display value="Medication Reconciliation (procedure)" />
      </coding>
      <text value="Medication Reconciliation (procedure)" />
    </productOrService>
    <servicedPeriod>
      <start value="2017-10-17T03:47:35-04:00" />
      <end value="2017-10-17T04:17:35-04:00" />
    </servicedPeriod>
    <locationCodeableConcept>
      <coding>
        <system value="http://terminology.hl7.org/CodeSystem/ex-serviceplace" />
        <code value="19" />
        <display value="Off Campus-Outpatient Hospital" />
      </coding>
    </locationCodeableConcept>
    <net>
      <value value="624.94" />
      <currency value="USD" />
    </net>
    <adjudication>
      <category>
        <coding>
          <system value="https://bluebutton.cms.gov/resources/codesystem/adjudication" />
          <code value="https://bluebutton.cms.gov/resources/variables/line_coinsrnc_amt" />
          <display value="Line Beneficiary Coinsurance Amount" />
        </coding>
      </category>
      <amount>
        <value value="124.98800000000001" />
        <currency value="USD" />
      </amount>
    </adjudication>
    <adjudication>
      <category>
        <coding>
          <system value="https://bluebutton.cms.gov/resources/codesystem/adjudication" />
          <code value="https://bluebutton.cms.gov/resources/variables/line_prvdr_pmt_amt" />
          <display value="Line Provider Payment Amount" />
        </coding>
      </category>
      <amount>
        <value value="499.95200000000006" />
        <currency value="USD" />
      </amount>
    </adjudication>
    <adjudication>
      <category>
        <coding>
          <system value="https://bluebutton.cms.gov/resources/codesystem/adjudication" />
          <code value="https://bluebutton.cms.gov/resources/variables/line_sbmtd_chrg_amt" />
          <display value="Line Submitted Charge Amount" />
        </coding>
      </category>
      <amount>
        <value value="624.94" />
        <currency value="USD" />
      </amount>
    </adjudication>
    <adjudication>
      <category>
        <coding>
          <system value="https://bluebutton.cms.gov/resources/codesystem/adjudication" />
          <code value="https://bluebutton.cms.gov/resources/variables/line_alowd_chrg_amt" />
          <display value="Line Allowed Charge Amount" />
        </coding>
      </category>
      <amount>
        <value value="624.94" />
        <currency value="USD" />
      </amount>
    </adjudication>
    <adjudication>
      <category>
        <coding>
          <system value="https://bluebutton.cms.gov/resources/codesystem/adjudication" />
          <code value="https://bluebutton.cms.gov/resources/variables/line_bene_ptb_ddctbl_amt" />
          <display value="Line Beneficiary Part B Deductible Amount" />
        </coding>
      </category>
      <amount>
        <value value="0" />
        <currency value="USD" />
      </amount>
    </adjudication>
    <adjudication>
      <category>
        <coding>
          <system value="https://bluebutton.cms.gov/resources/codesystem/adjudication" />
          <code value="https://bluebutton.cms.gov/resources/variables/line_prcsg_ind_cd" />
          <display value="Line Processing Indicator Code" />
        </coding>
      </category>
    </adjudication>
  </item>
  <item>
    <sequence value="6" />
    <diagnosisSequence value="1" />
    <category>
      <coding>
        <system value="https://bluebutton.cms.gov/resources/variables/line_cms_type_srvc_cd" />
        <code value="1" />
        <display value="Medical care" />
      </coding>
    </category>
    <productOrService>
      <coding>
        <system value="http://snomed.info/sct" />
        <code value="162864005" />
        <display value="Body mass index 30+ - obesity (finding)" />
      </coding>
      <text value="Body mass index 30+ - obesity (finding)" />
    </productOrService>
    <servicedPeriod>
      <start value="2017-10-17T03:47:35-04:00" />
      <end value="2017-10-17T04:17:35-04:00" />
    </servicedPeriod>
    <locationCodeableConcept>
      <coding>
        <system value="http://terminology.hl7.org/CodeSystem/ex-serviceplace" />
        <code value="19" />
        <display value="Off Campus-Outpatient Hospital" />
      </coding>
    </locationCodeableConcept>
  </item>
  <total>
    <category>
      <coding>
        <system value="http://terminology.hl7.org/CodeSystem/adjudication" />
        <code value="submitted" />
        <display value="Submitted Amount" />
      </coding>
      <text value="Submitted Amount" />
    </category>
    <amount>
      <value value="129.16" />
      <currency value="USD" />
    </amount>
  </total>
  <payment>
    <amount>
      <value value="837.2" />
      <currency value="USD" />
    </amount>
  </payment>
</ExplanationOfBenefit>