<ExplanationOfBenefit xmlns="http://hl7.org/fhir">
  <id value="b8dea578d0c549fd898a639c4c396774" />
  <meta>
    <versionId value="1" />
    <lastUpdated value="2023-05-18T14:54:16.0309422-07:00" />
  </meta>
  <contained>
    <ServiceRequest>
      <id value="referral" />
      <status value="completed" />
      <intent value="order" />
      <subject>
        <reference value="urn:uuid:eed483f7-c02a-4a74-bbed-1ca1029765f1" />
      </subject>
      <requester>
        <reference value="urn:uuid:0000016d-3a85-4cca-0000-0000000015e0" />
      </requester>
      <performer>
        <reference value="urn:uuid:0000016d-3a85-4cca-0000-0000000015e0" />
      </performer>
    </ServiceRequest>
  </contained>
  <contained>
    <Coverage>
      <id value="coverage" />
      <status value="active" />
      <type>
        <text value="Medicaid" />
      </type>
      <beneficiary>
        <reference value="urn:uuid:eed483f7-c02a-4a74-bbed-1ca1029765f1" />
      </beneficiary>
      <payor>
        <display value="Medicaid" />
      </payor>
    </Coverage>
  </contained>
  <identifier>
    <system value="https://bluebutton.cms.gov/resources/variables/clm_id" />
    <value value="64d77f90-5306-4c79-b499-646854884374" />
  </identifier>
  <identifier>
    <system value="https://bluebutton.cms.gov/resources/identifier/claim-group" />
    <value value="99999999999" />
  </identifier>
  <status value="active" />
  <type>
    <coding>
      <system value="http://terminology.hl7.org/CodeSystem/claim-type" />
      <code value="institutional" />
    </coding>
  </type>
  <use value="claim" />
  <patient>
    <reference value="urn:uuid:eed483f7-c02a-4a74-bbed-1ca1029765f1" />
  </patient>
  <billablePeriod>
    <start value="2019-08-22T19:11:16-04:00" />
    <end value="2020-08-22T19:11:16-04:00" />
  </billablePeriod>
  <created value="2019-08-22T19:11:16-04:00" />
  <insurer>
    <display value="Medicaid" />
  </insurer>
  <provider>
    <reference value="urn:uuid:0000016d-3a85-4cca-0000-0000000015e0" />
  </provider>
  <referral>
    <reference value="#referral" />
  </referral>
  <claim>
    <reference value="urn:uuid:64d77f90-5306-4c79-b499-646854884374" />
  </claim>
  <outcome value="complete" />
  <careTeam>
    <sequence value="1" />
    <provider>
      <reference value="urn:uuid:0000016d-3a85-4cca-0000-0000000015e0" />
    </provider>
    <role>
      <coding>
        <system value="http://terminology.hl7.org/CodeSystem/claimcareteamrole" />
        <code value="primary" />
        <display value="Primary Care Practitioner" />
      </coding>
    </role>
  </careTeam>
  <insurance>
    <focal value="true" />
    <coverage>
      <reference value="#coverage" />
      <display value="Medicaid" />
    </coverage>
  </insurance>
  <item>
    <sequence value="1" />
    <category>
      <coding>
        <system value="https://bluebutton.cms.gov/resources/variables/line_cms_type_srvc_cd" />
        <code value="1" />
        <display value="Medical care" />
      </coding>
    </category>
    <productOrService>
      <coding>
        <system value="http://snomed.info/sct" />
        <code value="410620009" />
        <display value="Well child visit (procedure)" />
      </coding>
      <text value="Well child visit (procedure)" />
    </productOrService>
    <servicedPeriod>
      <start value="2019-08-22T18:56:16-04:00" />
      <end value="2019-08-22T19:11:16-04:00" />
    </servicedPeriod>
    <locationCodeableConcept>
      <coding>
        <system value="http://terminology.hl7.org/CodeSystem/ex-serviceplace" />
        <code value="19" />
        <display value="Off Campus-Outpatient Hospital" />
      </coding>
    </locationCodeableConcept>
    <encounter>
      <reference value="urn:uuid:7a0c8c3b-6317-418f-90a2-a6004bb35473" />
    </encounter>
  </item>
  <item>
    <sequence value="2" />
    <informationSequence value="1" />
    <category>
      <coding>
        <system value="https://bluebutton.cms.gov/resources/variables/line_cms_type_srvc_cd" />
        <code value="1" />
        <display value="Medical care" />
      </coding>
    </category>
    <productOrService>
      <coding>
        <system value="http://hl7.org/fhir/sid/cvx" />
        <code value="08" />
        <display value="Hep B, adolescent or pediatric" />
      </coding>
      <text value="Hep B, adolescent or pediatric" />
    </productOrService>
    <servicedPeriod>
      <start value="2019-08-22T18:56:16-04:00" />
      <end value="2019-08-22T19:11:16-04:00" />
    </servicedPeriod>
    <locationCodeableConcept>
      <coding>
        <system value="http://terminology.hl7.org/CodeSystem/ex-serviceplace" />
        <code value="19" />
        <display value="Off Campus-Outpatient Hospital" />
      </coding>
    </locationCodeableConcept>
    <net>
      <value value="140.52" />
      <currency value="USD" />
    </net>
    <adjudication>
      <category>
        <coding>
          <system value="https://bluebutton.cms.gov/resources/codesystem/adjudication" />
          <code value="https://bluebutton.cms.gov/resources/variables/line_coinsrnc_amt" />
          <display value="Line Beneficiary Coinsurance Amount" />
        </coding>
      </category>
      <amount>
        <value value="28.104000000000003" />
        <currency value="USD" />
      </amount>
    </adjudication>
    <adjudication>
      <category>
        <coding>
          <system value="https://bluebutton.cms.gov/resources/codesystem/adjudication" />
          <code value="https://bluebutton.cms.gov/resources/variables/line_prvdr_pmt_amt" />
          <display value="Line Provider Payment Amount" />
        </coding>
      </category>
      <amount>
        <value value="112.41600000000001" />
        <currency value="USD" />
      </amount>
    </adjudication>
    <adjudication>
      <category>
        <coding>
          <system value="https://bluebutton.cms.gov/resources/codesystem/adjudication" />
          <code value="https://bluebutton.cms.gov/resources/variables/line_sbmtd_chrg_amt" />
          <display value="Line Submitted Charge Amount" />
        </coding>
      </category>
      <amount>
        <value value="140.52" />
        <currency value="USD" />
      </amount>
    </adjudication>
    <adjudication>
      <category>
        <coding>
          <system value="https://bluebutton.cms.gov/resources/codesystem/adjudication" />
          <code value="https://bluebutton.cms.gov/resources/variables/line_alowd_chrg_amt" />
          <display value="Line Allowed Charge Amount" />
        </coding>
      </category>
      <amount>
        <value value="140.52" />
        <currency value="USD" />
      </amount>
    </adjudication>
    <adjudication>
      <category>
        <coding>
          <system value="https://bluebutton.cms.gov/resources/codesystem/adjudication" />
          <code value="https://bluebutton.cms.gov/resources/variables/line_bene_ptb_ddctbl_amt" />
          <display value="Line Beneficiary Part B Deductible Amount" />
        </coding>
      </category>
      <amount>
        <value value="0" />
        <currency value="USD" />
      </amount>
    </adjudication>
    <adjudication>
      <category>
        <coding>
          <system value="https://bluebutton.cms.gov/resources/codesystem/adjudication" />
          <code value="https://bluebutton.cms.gov/resources/variables/line_prcsg_ind_cd" />
          <display value="Line Processing Indicator Code" />
        </coding>
      </category>
    </adjudication>
  </item>
  <total>
    <category>
      <coding>
        <system value="http://terminology.hl7.org/CodeSystem/adjudication" />
        <code value="submitted" />
        <display value="Submitted Amount" />
      </coding>
      <text value="Submitted Amount" />
    </category>
    <amount>
      <value value="129.16" />
      <currency value="USD" />
    </amount>
  </total>
  <payment>
    <amount>
      <value value="112.41600000000001" />
      <currency value="USD" />
    </amount>
  </payment>
</ExplanationOfBenefit>