<ExplanationOfBenefit xmlns="http://hl7.org/fhir">
  <id value="039f784ac6b3412f89378b55d4d99d84" />
  <meta>
    <versionId value="1" />
    <lastUpdated value="2023-05-18T14:54:19.5610246-07:00" />
  </meta>
  <contained>
    <ServiceRequest>
      <id value="referral" />
      <status value="completed" />
      <intent value="order" />
      <subject>
        <reference value="urn:uuid:02f3c474-fefb-4ceb-a1f8-a0467012cd2b" />
      </subject>
      <requester>
        <reference value="urn:uuid:0000016d-3a85-4cca-0000-0000000001ea" />
      </requester>
      <performer>
        <reference value="urn:uuid:0000016d-3a85-4cca-0000-0000000001ea" />
      </performer>
    </ServiceRequest>
  </contained>
  <contained>
    <Coverage>
      <id value="coverage" />
      <status value="active" />
      <type>
        <text value="Blue Cross Blue Shield" />
      </type>
      <beneficiary>
        <reference value="urn:uuid:02f3c474-fefb-4ceb-a1f8-a0467012cd2b" />
      </beneficiary>
      <payor>
        <display value="Blue Cross Blue Shield" />
      </payor>
    </Coverage>
  </contained>
  <identifier>
    <system value="https://bluebutton.cms.gov/resources/variables/clm_id" />
    <value value="f126fdd0-3100-476b-b346-bf962dbd1b72" />
  </identifier>
  <identifier>
    <system value="https://bluebutton.cms.gov/resources/identifier/claim-group" />
    <value value="99999999999" />
  </identifier>
  <status value="active" />
  <type>
    <coding>
      <system value="http://terminology.hl7.org/CodeSystem/claim-type" />
      <code value="institutional" />
    </coding>
  </type>
  <use value="claim" />
  <patient>
    <reference value="urn:uuid:02f3c474-fefb-4ceb-a1f8-a0467012cd2b" />
  </patient>
  <billablePeriod>
    <start value="2019-09-09T09:24:07-04:00" />
    <end value="2020-09-09T09:24:07-04:00" />
  </billablePeriod>
  <created value="2019-09-09T09:24:07-04:00" />
  <insurer>
    <display value="Blue Cross Blue Shield" />
  </insurer>
  <provider>
    <reference value="urn:uuid:0000016d-3a85-4cca-0000-0000000001ea" />
  </provider>
  <referral>
    <reference value="#referral" />
  </referral>
  <claim>
    <reference value="urn:uuid:f126fdd0-3100-476b-b346-bf962dbd1b72" />
  </claim>
  <outcome value="complete" />
  <careTeam>
    <sequence value="1" />
    <provider>
      <reference value="urn:uuid:0000016d-3a85-4cca-0000-0000000001ea" />
    </provider>
    <role>
      <coding>
        <system value="http://terminology.hl7.org/CodeSystem/claimcareteamrole" />
        <code value="primary" />
        <display value="Primary Care Practitioner" />
      </coding>
    </role>
  </careTeam>
  <diagnosis>
    <sequence value="1" />
    <diagnosisReference>
      <reference value="urn:uuid:755ddf3f-f4e7-4a39-9c5f-c703c7345d69" />
    </diagnosisReference>
    <type>
      <coding>
        <system value="http://terminology.hl7.org/CodeSystem/ex-diagnosistype" />
        <code value="principal" />
      </coding>
    </type>
  </diagnosis>
  <insurance>
    <focal value="true" />
    <coverage>
      <reference value="#coverage" />
      <display value="Blue Cross Blue Shield" />
    </coverage>
  </insurance>
  <item>
    <sequence value="1" />
    <category>
      <coding>
        <system value="https://bluebutton.cms.gov/resources/variables/line_cms_type_srvc_cd" />
        <code value="1" />
        <display value="Medical care" />
      </coding>
    </category>
    <productOrService>
      <coding>
        <system value="http://snomed.info/sct" />
        <code value="50849002" />
        <display value="Emergency room admission (procedure)" />
      </coding>
      <text value="Emergency room admission (procedure)" />
    </productOrService>
    <servicedPeriod>
      <start value="2019-09-09T08:24:07-04:00" />
      <end value="2019-09-09T09:24:07-04:00" />
    </servicedPeriod>
    <locationCodeableConcept>
      <coding>
        <system value="http://terminology.hl7.org/CodeSystem/ex-serviceplace" />
        <code value="20" />
        <display value="Urgent Care Facility" />
      </coding>
    </locationCodeableConcept>
    <encounter>
      <reference value="urn:uuid:6348d0e6-4e62-43a1-af19-5a32dbb40d48" />
    </encounter>
  </item>
  <item>
    <sequence value="2" />
    <diagnosisSequence value="1" />
    <category>
      <coding>
        <system value="https://bluebutton.cms.gov/resources/variables/line_cms_type_srvc_cd" />
        <code value="1" />
        <display value="Medical care" />
      </coding>
    </category>
    <productOrService>
      <coding>
        <system value="http://snomed.info/sct" />
        <code value="39848009" />
        <display value="Whiplash injury to neck" />
      </coding>
      <text value="Whiplash injury to neck" />
    </productOrService>
    <servicedPeriod>
      <start value="2019-09-09T08:24:07-04:00" />
      <end value="2019-09-09T09:24:07-04:00" />
    </servicedPeriod>
    <locationCodeableConcept>
      <coding>
        <system value="http://terminology.hl7.org/CodeSystem/ex-serviceplace" />
        <code value="20" />
        <display value="Urgent Care Facility" />
      </coding>
    </locationCodeableConcept>
  </item>
  <total>
    <category>
      <coding>
        <system value="http://terminology.hl7.org/CodeSystem/adjudication" />
        <code value="submitted" />
        <display value="Submitted Amount" />
      </coding>
      <text value="Submitted Amount" />
    </category>
    <amount>
      <value value="129.16" />
      <currency value="USD" />
    </amount>
  </total>
  <payment>
    <amount>
      <value value="0.0" />
      <currency value="USD" />
    </amount>
  </payment>
</ExplanationOfBenefit>