<ExplanationOfBenefit xmlns="http://hl7.org/fhir">
  <id value="e9621d4ab0fe46fdaca054c65647669f" />
  <meta>
    <versionId value="1" />
    <lastUpdated value="2023-05-18T14:54:20.6678528-07:00" />
  </meta>
  <contained>
    <ServiceRequest>
      <id value="referral" />
      <status value="completed" />
      <intent value="order" />
      <subject>
        <reference value="urn:uuid:73d58836-0439-4251-87d1-40e5f2f8c113" />
      </subject>
      <requester>
        <reference value="urn:uuid:0000016d-3a85-4cca-0000-00000000e33a" />
      </requester>
      <performer>
        <reference value="urn:uuid:0000016d-3a85-4cca-0000-00000000e33a" />
      </performer>
    </ServiceRequest>
  </contained>
  <contained>
    <Coverage>
      <id value="coverage" />
      <status value="active" />
      <type>
        <text value="Blue Cross Blue Shield" />
      </type>
      <beneficiary>
        <reference value="urn:uuid:73d58836-0439-4251-87d1-40e5f2f8c113" />
      </beneficiary>
      <payor>
        <display value="Blue Cross Blue Shield" />
      </payor>
    </Coverage>
  </contained>
  <identifier>
    <system value="https://bluebutton.cms.gov/resources/variables/clm_id" />
    <value value="4f4d3dea-d19b-4910-a8bf-41b40c0e59e2" />
  </identifier>
  <identifier>
    <system value="https://bluebutton.cms.gov/resources/identifier/claim-group" />
    <value value="99999999999" />
  </identifier>
  <status value="active" />
  <type>
    <coding>
      <system value="http://terminology.hl7.org/CodeSystem/claim-type" />
      <code value="institutional" />
    </coding>
  </type>
  <use value="claim" />
  <patient>
    <reference value="urn:uuid:73d58836-0439-4251-87d1-40e5f2f8c113" />
  </patient>
  <billablePeriod>
    <start value="2018-12-05T10:54:41-05:00" />
    <end value="2019-12-05T10:54:41-05:00" />
  </billablePeriod>
  <created value="2018-12-05T10:54:41-05:00" />
  <insurer>
    <display value="Blue Cross Blue Shield" />
  </insurer>
  <provider>
    <reference value="urn:uuid:0000016d-3a85-4cca-0000-00000000e33a" />
  </provider>
  <referral>
    <reference value="#referral" />
  </referral>
  <claim>
    <reference value="urn:uuid:4f4d3dea-d19b-4910-a8bf-41b40c0e59e2" />
  </claim>
  <outcome value="complete" />
  <careTeam>
    <sequence value="1" />
    <provider>
      <reference value="urn:uuid:0000016d-3a85-4cca-0000-00000000e33a" />
    </provider>
    <role>
      <coding>
        <system value="http://terminology.hl7.org/CodeSystem/claimcareteamrole" />
        <code value="primary" />
        <display value="Primary Care Practitioner" />
      </coding>
    </role>
  </careTeam>
  <insurance>
    <focal value="true" />
    <coverage>
      <reference value="#coverage" />
      <display value="Blue Cross Blue Shield" />
    </coverage>
  </insurance>
  <item>
    <sequence value="1" />
    <category>
      <coding>
        <system value="https://bluebutton.cms.gov/resources/variables/line_cms_type_srvc_cd" />
        <code value="1" />
        <display value="Medical care" />
      </coding>
    </category>
    <productOrService>
      <coding>
        <system value="http://snomed.info/sct" />
        <code value="410620009" />
        <display value="Well child visit (procedure)" />
      </coding>
      <text value="Well child visit (procedure)" />
    </productOrService>
    <servicedPeriod>
      <start value="2018-12-05T10:39:41-05:00" />
      <end value="2018-12-05T10:54:41-05:00" />
    </servicedPeriod>
    <locationCodeableConcept>
      <coding>
        <system value="http://terminology.hl7.org/CodeSystem/ex-serviceplace" />
        <code value="19" />
        <display value="Off Campus-Outpatient Hospital" />
      </coding>
    </locationCodeableConcept>
    <encounter>
      <reference value="urn:uuid:e517c0ce-19ac-4f15-9281-28195107cf67" />
    </encounter>
  </item>
  <total>
    <category>
      <coding>
        <system value="http://terminology.hl7.org/CodeSystem/adjudication" />
        <code value="submitted" />
        <display value="Submitted Amount" />
      </coding>
      <text value="Submitted Amount" />
    </category>
    <amount>
      <value value="129.16" />
      <currency value="USD" />
    </amount>
  </total>
  <payment>
    <amount>
      <value value="0.0" />
      <currency value="USD" />
    </amount>
  </payment>
</ExplanationOfBenefit>