<ExplanationOfBenefit xmlns="http://hl7.org/fhir">
  <id value="69595b090e064676b29af765e8406e83" />
  <meta>
    <versionId value="1" />
    <lastUpdated value="2023-05-18T14:54:10.6291039-07:00" />
  </meta>
  <contained>
    <ServiceRequest>
      <id value="referral" />
      <status value="completed" />
      <intent value="order" />
      <subject>
        <reference value="urn:uuid:1fedded9-cab0-486e-bacb-1a166bbbefa8" />
      </subject>
      <requester>
        <reference value="urn:uuid:0000016d-3a85-4cca-0000-0000000000c8" />
      </requester>
      <performer>
        <reference value="urn:uuid:0000016d-3a85-4cca-0000-0000000000c8" />
      </performer>
    </ServiceRequest>
  </contained>
  <contained>
    <Coverage>
      <id value="coverage" />
      <status value="active" />
      <type>
        <text value="NO_INSURANCE" />
      </type>
      <beneficiary>
        <reference value="urn:uuid:1fedded9-cab0-486e-bacb-1a166bbbefa8" />
      </beneficiary>
      <payor>
        <display value="NO_INSURANCE" />
      </payor>
    </Coverage>
  </contained>
  <identifier>
    <system value="https://bluebutton.cms.gov/resources/variables/clm_id" />
    <value value="f1faddf6-c0a7-4cb1-a5dd-fb7470a7177c" />
  </identifier>
  <identifier>
    <system value="https://bluebutton.cms.gov/resources/identifier/claim-group" />
    <value value="99999999999" />
  </identifier>
  <status value="active" />
  <type>
    <coding>
      <system value="http://terminology.hl7.org/CodeSystem/claim-type" />
      <code value="institutional" />
    </coding>
  </type>
  <use value="claim" />
  <patient>
    <reference value="urn:uuid:1fedded9-cab0-486e-bacb-1a166bbbefa8" />
  </patient>
  <billablePeriod>
    <start value="2018-11-08T06:42:24-05:00" />
    <end value="2019-11-08T06:42:24-05:00" />
  </billablePeriod>
  <created value="2018-11-08T06:42:24-05:00" />
  <insurer>
    <display value="NO_INSURANCE" />
  </insurer>
  <provider>
    <reference value="urn:uuid:0000016d-3a85-4cca-0000-0000000000c8" />
  </provider>
  <referral>
    <reference value="#referral" />
  </referral>
  <claim>
    <reference value="urn:uuid:f1faddf6-c0a7-4cb1-a5dd-fb7470a7177c" />
  </claim>
  <outcome value="complete" />
  <careTeam>
    <sequence value="1" />
    <provider>
      <reference value="urn:uuid:0000016d-3a85-4cca-0000-0000000000c8" />
    </provider>
    <role>
      <coding>
        <system value="http://terminology.hl7.org/CodeSystem/claimcareteamrole" />
        <code value="primary" />
        <display value="Primary Care Practitioner" />
      </coding>
    </role>
  </careTeam>
  <diagnosis>
    <sequence value="1" />
    <diagnosisReference>
      <reference value="urn:uuid:76b3f733-02ad-42cf-94de-4ce0fc03d168" />
    </diagnosisReference>
    <type>
      <coding>
        <system value="http://terminology.hl7.org/CodeSystem/ex-diagnosistype" />
        <code value="principal" />
      </coding>
    </type>
  </diagnosis>
  <insurance>
    <focal value="true" />
    <coverage>
      <reference value="#coverage" />
      <display value="NO_INSURANCE" />
    </coverage>
  </insurance>
  <item>
    <sequence value="1" />
    <category>
      <coding>
        <system value="https://bluebutton.cms.gov/resources/variables/line_cms_type_srvc_cd" />
        <code value="1" />
        <display value="Medical care" />
      </coding>
    </category>
    <productOrService>
      <coding>
        <system value="http://snomed.info/sct" />
        <code value="50849002" />
        <display value="Emergency room admission (procedure)" />
      </coding>
      <text value="Emergency room admission (procedure)" />
    </productOrService>
    <servicedPeriod>
      <start value="2018-11-08T05:12:24-05:00" />
      <end value="2018-11-08T06:42:24-05:00" />
    </servicedPeriod>
    <locationCodeableConcept>
      <coding>
        <system value="http://terminology.hl7.org/CodeSystem/ex-serviceplace" />
        <code value="20" />
        <display value="Urgent Care Facility" />
      </coding>
    </locationCodeableConcept>
    <encounter>
      <reference value="urn:uuid:95016ee5-f3e0-41a6-9169-a031741bf911" />
    </encounter>
  </item>
  <item>
    <sequence value="2" />
    <diagnosisSequence value="1" />
    <category>
      <coding>
        <system value="https://bluebutton.cms.gov/resources/variables/line_cms_type_srvc_cd" />
        <code value="1" />
        <display value="Medical care" />
      </coding>
    </category>
    <productOrService>
      <coding>
        <system value="http://snomed.info/sct" />
        <code value="444448004" />
        <display value="Injury of medial collateral ligament of knee" />
      </coding>
      <text value="Injury of medial collateral ligament of knee" />
    </productOrService>
    <servicedPeriod>
      <start value="2018-11-08T05:12:24-05:00" />
      <end value="2018-11-08T06:42:24-05:00" />
    </servicedPeriod>
    <locationCodeableConcept>
      <coding>
        <system value="http://terminology.hl7.org/CodeSystem/ex-serviceplace" />
        <code value="20" />
        <display value="Urgent Care Facility" />
      </coding>
    </locationCodeableConcept>
  </item>
  <item>
    <sequence value="3" />
    <category>
      <coding>
        <system value="https://bluebutton.cms.gov/resources/variables/line_cms_type_srvc_cd" />
        <code value="1" />
        <display value="Medical care" />
      </coding>
    </category>
    <productOrService>
      <coding>
        <system value="http://snomed.info/sct" />
        <code value="74016001" />
        <display value="Knee X-ray" />
      </coding>
      <text value="Knee X-ray" />
    </productOrService>
    <servicedPeriod>
      <start value="2018-11-08T05:12:24-05:00" />
      <end value="2018-11-08T06:42:24-05:00" />
    </servicedPeriod>
    <locationCodeableConcept>
      <coding>
        <system value="http://terminology.hl7.org/CodeSystem/ex-serviceplace" />
        <code value="20" />
        <display value="Urgent Care Facility" />
      </coding>
    </locationCodeableConcept>
    <net>
      <value value="516.65" />
      <currency value="USD" />
    </net>
    <adjudication>
      <category>
        <coding>
          <system value="https://bluebutton.cms.gov/resources/codesystem/adjudication" />
          <code value="https://bluebutton.cms.gov/resources/variables/line_coinsrnc_amt" />
          <display value="Line Beneficiary Coinsurance Amount" />
        </coding>
      </category>
      <amount>
        <value value="103.33" />
        <currency value="USD" />
      </amount>
    </adjudication>
    <adjudication>
      <category>
        <coding>
          <system value="https://bluebutton.cms.gov/resources/codesystem/adjudication" />
          <code value="https://bluebutton.cms.gov/resources/variables/line_prvdr_pmt_amt" />
          <display value="Line Provider Payment Amount" />
        </coding>
      </category>
      <amount>
        <value value="413.32" />
        <currency value="USD" />
      </amount>
    </adjudication>
    <adjudication>
      <category>
        <coding>
          <system value="https://bluebutton.cms.gov/resources/codesystem/adjudication" />
          <code value="https://bluebutton.cms.gov/resources/variables/line_sbmtd_chrg_amt" />
          <display value="Line Submitted Charge Amount" />
        </coding>
      </category>
      <amount>
        <value value="516.65" />
        <currency value="USD" />
      </amount>
    </adjudication>
    <adjudication>
      <category>
        <coding>
          <system value="https://bluebutton.cms.gov/resources/codesystem/adjudication" />
          <code value="https://bluebutton.cms.gov/resources/variables/line_alowd_chrg_amt" />
          <display value="Line Allowed Charge Amount" />
        </coding>
      </category>
      <amount>
        <value value="516.65" />
        <currency value="USD" />
      </amount>
    </adjudication>
    <adjudication>
      <category>
        <coding>
          <system value="https://bluebutton.cms.gov/resources/codesystem/adjudication" />
          <code value="https://bluebutton.cms.gov/resources/variables/line_bene_ptb_ddctbl_amt" />
          <display value="Line Beneficiary Part B Deductible Amount" />
        </coding>
      </category>
      <amount>
        <value value="0" />
        <currency value="USD" />
      </amount>
    </adjudication>
    <adjudication>
      <category>
        <coding>
          <system value="https://bluebutton.cms.gov/resources/codesystem/adjudication" />
          <code value="https://bluebutton.cms.gov/resources/variables/line_prcsg_ind_cd" />
          <display value="Line Processing Indicator Code" />
        </coding>
      </category>
    </adjudication>
  </item>
  <total>
    <category>
      <coding>
        <system value="http://terminology.hl7.org/CodeSystem/adjudication" />
        <code value="submitted" />
        <display value="Submitted Amount" />
      </coding>
      <text value="Submitted Amount" />
    </category>
    <amount>
      <value value="129.16" />
      <currency value="USD" />
    </amount>
  </total>
  <payment>
    <amount>
      <value value="413.32" />
      <currency value="USD" />
    </amount>
  </payment>
</ExplanationOfBenefit>